Folder: High_Entropy_Alloy/ML_works/classification/data

Note: README.md
# High_Entropy_Alloy

File: hea_data_phases.csv
Composition,Density,EquiTibrium conditions,Single/Muplitple_Phase,PhaseType,Reference,Tension0/Compression1,TestTempC,YieldStr(MPa),YieldStr(MPa)/density,Ductility (%),Hardness (HV),HIP,Anneal,CR,SPS,SPD,Grain Size (um),Strain Rate (s-1),Arc Melting,Melt Cooling Rate (degC/min),HIP Temp (degC),HIP Pressure (MPa),HIP Time (h),Anneal Temp (degC),Anneal Time (h),Anneal Cooling Rate (degC/min),Final CR DeformPercentage,SPS Temp (degC),SPS Pressure (MPa),SPS Hold Time (min),composition,H,He,Li,Be,B,C,N,O,F,Ne,Na,Mg,Al,Si,P,S,Cl,Ar,K,Ca,Sc,Ti,V,Cr,Mn,Fe,Co,Ni,Cu,Zn,Ga,Ge,As,Se,Br,Kr,Rb,Sr,Y,Zr,Nb,Mo,Tc,Ru,Rh,Pd,Ag,Cd,In,Sn,Sb,Te,I,Xe,Cs,Ba,La,Ce,Pr,Nd,Pm,Sm,Eu,Gd,Tb,Dy,Ho,Er,Tm,Yb,Lu,Hf,Ta,W,Re,Os,Ir,Pt,Au,Hg,Tl,Pb,Bi,Po,At,Rn,Fr,Ra,Ac,Th,Pa,U,Np,Pu,Am,Cm,Bk,Cf,Es,Fm,Md,No,Lr,Yang omega,Yang delta,Yang Ent,Yang Hmix,Yang Tm,Yang Hmax,Yang Tmax,Yang Phi,Yang delXi,Yang HPSigma,Yang HPSigma_min,Yang HPSigma_min05,Yang HPK,Yang VEC,Yang sigma_SS_Liaw,dr H,dr He,dr Li,dr Be,dr B,dr C,dr N,dr O,dr F,dr Ne,dr Na,dr Mg,dr Al,dr Si,dr P,dr S,dr Cl,dr Ar,dr K,dr Ca,dr Sc,dr Ti,dr V,dr Cr,dr Mn,dr Fe,dr Co,dr Ni,dr Cu,dr Zn,dr Ga,dr Ge,dr As,dr Se,dr Br,dr Kr,dr Rb,dr Sr,dr Y,dr Zr,dr Nb,dr Mo,dr Tc,dr Ru,dr Rh,dr Pd,dr Ag,dr Cd,dr In,dr Sn,dr Sb,dr Te,dr I,dr Xe,dr Cs,dr Ba,dr La,dr Ce,dr Pr,dr Nd,dr Pm,dr Sm,dr Eu,dr Gd,dr Tb,dr Dy,dr Ho,dr Er,dr Tm,dr Yb,dr Lu,dr Hf,dr Ta,dr W,dr Re,dr Os,dr Ir,dr Pt,dr Au,dr Hg,dr Tl,dr Pb,dr Bi,dr Po,dr At,dr Rn,dr Fr,dr Ra,dr Ac,dr Th,dr Pa,dr U,dr Np,dr Pu,dr Am,dr Cm,dr Bk,dr Cf,dr Es,dr Fm,dr Md,dr No,dr Lr,dG H,dG He,dG Li,dG Be,dG B,dG C,dG N,dG O,dG F,dG Ne,dG Na,dG Mg,dG Al,dG Si,dG P,dG S,dG Cl,dG Ar,dG K,dG Ca,dG Sc,dG Ti,dG V,dG Cr,dG Mn,dG Fe,dG Co,dG Ni,dG Cu,dG Zn,dG Ga,dG Ge,dG As,dG Se,dG Br,dG Kr,dG Rb,dG Sr,dG Y,dG Zr,dG Nb,dG Mo,dG Tc,dG Ru,dG Rh,dG Pd,dG Ag,dG Cd,dG In,dG Sn,dG Sb,dG Te,dG I,dG Xe,dG Cs,dG Ba,dG La,dG Ce,dG Pr,dG Nd,dG Pm,dG Sm,dG Eu,dG Gd,dG Tb,dG Dy,dG Ho,dG Er,dG Tm,dG Yb,dG Lu,dG Hf,dG Ta,dG W,dG Re,dG Os,dG Ir,dG Pt,dG Au,dG Hg,dG Tl,dG Pb,dG Bi,dG Po,dG At,dG Rn,dG Fr,dG Ra,dG Ac,dG Th,dG Pa,dG U,dG Np,dG Pu,dG Am,dG Cm,dG Bk,dG Cf,dG Es,dG Fm,dG Md,dG No,dG Lr
Al0.25MoNbTiV,7.1,AC,s,BCC,3,1,25,1250,176.9,12.7,460.1,0,0,0,0,0,,0.0005,1,,25,,0,25,0,10,0,,,,Al0.25 Mo1 Nb1 Ti1 V1,0,0,0,0,0,0,0,0,0,0,0,0,0.0588235,0,0,0,0,0,0,0,0,0.235294,0.235294,0,0,0,0,0,0,0,0,0,0,0,0,0,0,0,0,0,0.235294,0.235294,0,0,0,0,0,0,0,0,0,0,0,0,0,0,0,0,0,0,0,0,0,0,0,0,0,0,0,0,0,0,0,0,0,0,0,0,0,0,0,0,0,0,0,0,0,0,0,0,0,0,0,0,0,0,0,0,0,0,0,0,0,4.78104,0.039049,0.0127077,-6.25606,2353.73,0.110727,2896,4.27738,0.140971,162.941,10,91.25,367.647,4.88235,1335.19,0,0,0,0,0,0,0,0,0,0,0,0,-0.0289636,0,0,0,0,0,0,0,0,-0.052304,0.06103328,0,0,0,0,0,0,0,0,0,0,0,0,0,0,0,0,0,-0.0289636,0.0274752,0,0,0,0,0,0,0,0,0,0,0,0,0,0,0,0,0,0,0,0,0,0,0,0,0,0,0,0,0,0,0,0,0,0,0,0,0,0,0,0,0,0,0,0,0,0,0,0,0,0,0,0,0,0,0,0,0,0,0,0,0,0,0,0,0,0,0,0,0,0,0,0,0,0.368338,0,0,0,0,0,0,0,0,-0.107818,-0.315192,0,0,0,0,0,0,0,0,0,0,0,0,0,0,0,0,0,-0.286037,0.616962,0,0,0,0,0,0,0,0,0,0,0,0,0,0,0,0,0,0,0,0,0,0,0,0,0,0,0,0,0,0,0,0,0,0,0,0,0,0,0,0,0,0,0,0,0,0,0,0,0,0,0,0,0,0,0,0,0,0,0,0,0
Al0.3NbTaTi1.4Zr1.3,8.1,HIP+A,M,BCC+B2,8,1,1000,236,29.2,48.89,,1,1,0,0,0,200,0.001,1,,1200,207,2,1200,24,10,0,,,,Al0.3 Nb1 Ta1 Ti1.4 Zr1.3,0,0,0,0,0,0,0,0,0,0,0,0,0.06,0,0,0,0,0,0,0,0,0.28,0,0,0,0,0,0,0,0,0,0,0,0,0,0,0,0,0,0.26,0.2,0,0,0,0,0,0,0,0,0,0,0,0,0,0,0,0,0,0,0,0,0,0,0,0,0,0,0,0,0,0,0,0.2,0,0,0,0,0,0,0,0,0,0,0,0,0,0,0,0,0,0,0,0,0,0,0,0,0,0,0,0,0,0,6.76228,0.0476901,0.012631,-4.4096,2360.77,0.208,3290,3.53314,0.0690844,173,10,96.7021,351.4,7.14,1575.67,0,0,0,0,0,0,0,0,0,0,0,0,0.0393616,0,0,0,0,0,0,0,0,0.0160208,0,0,0,0,0,0,0,0,0,0,0,0,0,0,0,0,0,-0.0868928,0.0393616,0,0,0,0,0,0,0,0,0,0,0,0,0,0,0,0,0,0,0,0,0,0,0,0,0,0,0,0,0,0,0,0.0393616,0,0,0,0,0,0,0,0,0,0,0,0,0,0,0,0,0,0,0,0,0,0,0,0,0,0,0,0,0,0,0,0,0,0,0,0,0,0,0,0,0,0,0.581527,0,0,0,0,0,0,0,0,0.104625,0,0,0,0,0,0,0,0,0,0,0,0,0,0,0,0,0,0.0415635,-0.0787272,0,0,0,0,0,0,0,0,0,0,0,0,0,0,0,0,0,0,0,0,0,0,0,0,0,0,0,0,0,0,0,-0.296239,0,0,0,0,0,0,0,0,0,0,0,0,0,0,0,0,0,0,0,0,0,0,0,0,0,0,0,0,0,0
AlCr1.5NbTiV,5.9,A,M,BCC+Laves,11,1,800,970,165.5,42.98,,0,1,0,0,0,150,0.0001,1,,25,,0,1200,24,100,0,,,,Al1 Cr1.5 Nb1 Ti1 V1,0,0,0,0,0,0,0,0,0,0,0,0,0.181818,0,0,0,0,0,0,0,0,0.181818,0.181818,0.272727,0,0,0,0,0,0,0,0,0,0,0,0,0,0,0,0,0.181818,0,0,0,0,0,0,0,0,0,0,0,0,0,0,0,0,0,0,0,0,0,0,0,0,0,0,0,0,0,0,0,0,0,0,0,0,0,0,0,0,0,0,0,0,0,0,0,0,0,0,0,0,0,0,0,0,0,0,0,0,0,0,1.94113,0.0503373,0.0132539,-13.7521,2014.09,0.0661157,2750,5.06215,0.0252345,165.455,10,105,400,4.72727,2787.76,0,0,0,0,0,0,0,0,0,0,0,0,-0.0431088,0,0,0,0,0,0,0,0,-0.066437,0.0468696,0.0705233,0,0,0,0,0,0,0,0,0,0,0,0,0,0,0,0,-0.0431088,0,0,0,0,0,0,0,0,0,0,0,0,0,0,0,0,0,0,0,0,0,0,0,0,0,0,0,0,0,0,0,0,0,0,0,0,0,0,0,0,0,0,0,0,0,0,0,0,0,0,0,0,0,0,0,0,0,0,0,0,0,0,0,0,0,0,0,0,0,0,0,0,0,0,0.706975,0,0,0,0,0,0,0,0,0.2614854,0.0589592,-0.743461,0,0,0,0,0,0,0,0,0,0,0,0,0,0,0,0,0.0877723,0,0,0,0,0,0,0,0,0,0,0,0,0,0,0,0,0,0,0,0,0,0,0,0,0,0,0,0,0,0,0,0,0,0,0,0,0,0,0,0,0,0,0,0,0,0,0,0,0,0,0,0,0,0,0,0,0,0,0,0,0,0
AlMo0.5NbTa0.5TiZr,7.1,HIP+A,M,BCC+B2,14,1,600,1870,261.6,,,1,1,0,0,0,75,0.001,1,,1400,207,2,1400,24,10,0,,,,Al1 Mo0.5 Nb1 Ta0.5 Ti1 Zr1,0,0,0,0,0,0,0,0,0,0,0,0,0.2,0,0,0,0,0,0,0,0,0.2,0,0,0,0,0,0,0,0,0,0,0,0,0,0,0,0,0,0.2,0.2,0.1,0,0,0,0,0,0,0,0,0,0,0,0,0,0,0,0,0,0,0,0,0,0,0,0,0,0,0,0,0,0,0.1,0,0,0,0,0,0,0,0,0,0,0,0,0,0,0,0,0,0,0,0,0,0,0,0,0,0,0,0,0,0,1.87199,0.0500471,0.0145334,-16.84,2169.094,0.16,3290,5.01713,0.137556,159,10,103.125,319,5.7,1187.97,0,0,0,0,0,0,0,0,0,0,0,0,0.0242736,0,0,0,0,0,0,0,0,0.000931311,0,0,0,0,0,0,0,0,0,0,0,0,0,0,0,0,0,-0.10195,0.0242736,0.08066974,0,0,0,0,0,0,0,0,0,0,0,0,0,0,0,0,0,0,0,0,0,0,0,0,0,0,0,0,0,0,0.0242736,0,0,0,0,0,0,0,0,0,0,0,0,0,0,0,0,0,0,0,0,0,0,0,0,0,0,0,0,0,0,0,0,0,0,0,0,0,0,0,0,0,0,0.397386,0,0,0,0,0,0,0,0,-0.08112206,0,0,0,0,0,0,0,0,0,0,0,0,0,0,0,0,0,-0.143153,-0.260734,0.646224,0,0,0,0,0,0,0,0,0,0,0,0,0,0,0,0,0,0,0,0,0,0,0,0,0,0,0,0,0,0,-0.470977,0,0,0,0,0,0,0,0,0,0,0,0,0,0,0,0,0,0,0,0,0,0,0,0,0,0,0,0,0,0
CrHfNbTiZr,8.2,AC,M,BCC+Laves,19,1,25,1375,167,3.06,,0,0,0,0,0,,0.0005,1,,25,,0,25,0,10,0,,,,Cr1 Hf1 Nb1 Ti1 Zr1,0,0,0,0,0,0,0,0,0,0,0,0,0,0,0,0,0,0,0,0,0,0.2,0,0.2,0,0,0,0,0,0,0,0,0,0,0,0,0,0,0,0.2,0.2,0,0,0,0,0,0,0,0,0,0,0,0,0,0,0,0,0,0,0,0,0,0,0,0,0,0,0,0,0,0,0.2,0,0,0,0,0,0,0,0,0,0,0,0,0,0,0,0,0,0,0,0,0,0,0,0,0,0,0,0,0,0,0,7.69734,0.0757299,0.0133809,-4,2301,0.16,2750,4.30355,0.0975751,206,100,166.25,392,7.4,3376.89,0,0,0,0,0,0,0,0,0,0,0,0,0,0,0,0,0,0,0,0,0,0.006295917,0,0.14299,0,0,0,0,0,0,0,0,0,0,0,0,0,0,0,-0.0965052,0.0296168,0,0,0,0,0,0,0,0,0,0,0,0,0,0,0,0,0,0,0,0,0,0,0,0,0,0,0,0,0,0,-0.0823974,0,0,0,0,0,0,0,0,0,0,0,0,0,0,0,0,0,0,0,0,0,0,0,0,0,0,0,0,0,0,0,0,0,0,0,0,0,0,0,0,0,0,0,0,0,0,0,0,0,0,0,0,0.212939,0,-0.803403,0,0,0,0,0,0,0,0,0,0,0,0,0,0,0,0.151935,0.0352248,0,0,0,0,0,0,0,0,0,0,0,0,0,0,0,0,0,0,0,0,0,0,0,0,0,0,0,0,0,0,0.403305,0,0,0,0,0,0,0,0,0,0,0,0,0,0,0,0,0,0,0,0,0,0,0,0,0,0,0,0,0,0,0
CrTaVW,13,SPS,M,BCC+Laves,22,1,1200,979,75.1,,,0,0,0,1,0,,0.001,0,,25,,0,25,0,10,0,1500,50,15,Cr1 Ta1 V1 W1,0,0,0,0,0,0,0,0,0,0,0,0,0,0,0,0,0,0,0,0,0,0,0.25,0.25,0,0,0,0,0,0,0,0,0,0,0,0,0,0,0,0,0,0,0,0,0,0,0,0,0,0,0,0,0,0,0,0,0,0,0,0,0,0,0,0,0,0,0,0,0,0,0,0,0.25,0.25,0,0,0,0,0,0,0,0,0,0,0,0,0,0,0,0,0,0,0,0,0,0,0,0,0,0,0,0,0,7.69371,0.0386972,0.0115257,-4.25,2837,0.0625,3695,3.4501,0.187949,312.5,50,225,735,12.5,3843.31,0,0,0,0,0,0,0,0,0,0,0,0,0,0,0,0,0,0,0,0,0,0,0.0270343,0.0507034,0,0,0,0,0,0,0,0,0,0,0,0,0,0,0,0,0,0,0,0,0,0,0,0,0,0,0,0,0,0,0,0,0,0,0,0,0,0,0,0,0,0,0,0,0,0,0,0,-0.0629627,-0.0147751,0,0,0,0,0,0,0,0,0,0,0,0,0,0,0,0,0,0,0,0,0,0,0,0,0,0,0,0,0,0,0,0,0,0,0,0,0,0,0,0,0,0,0,0,0,0,0,0,0,0,0,0.561107,-0.258463,0,0,0,0,0,0,0,0,0,0,0,0,0,0,0,0,0,0,0,0,0,0,0,0,0,0,0,0,0,0,0,0,0,0,0,0,0,0,0,0,0,0,0,0,0,0,0,0,0.388583,-0.691227,0,0,0,0,0,0,0,0,0,0,0,0,0,0,0,0,0,0,0,0,0,0,0,0,0,0,0,0,0
Hf0.75NbTa0.5Ti1.5Zr1.25,8.4,CR,s,BCC,26,1,-268.8,2210,262.8,0.56,,0,0,1,0,0,,0.0003,1,90,25,,0,25,0,10,40,,,,Hf0.75 Nb1 Ta0.5 Ti1.5 Zr1.25,0,0,0,0,0,0,0,0,0,0,0,0,0,0,0,0,0,0,0,0,0,0.3,0,0,0,0,0,0,0,0,0,0,0,0,0,0,0,0,0,0.25,0.2,0,0,0,0,0,0,0,0,0,0,0,0,0,0,0,0,0,0,0,0,0,0,0,0,0,0,0,0,0,0,0.15,0.1,0,0,0,0,0,0,0,0,0,0,0,0,0,0,0,0,0,0,0,0,0,0,0,0,0,0,0,0,0,0,12.8909,0.0488324,0.0128408,2.36,2369.2,0.2,3290,2.89906,0.08125721,182,80,136.667,323.5,7.8,1610.09,0,0,0,0,0,0,0,0,0,0,0,0,0,0,0,0,0,0,0,0,0,0.0320507,0,0,0,0,0,0,0,0,0,0,0,0,0,0,0,0,0,-0.0708763,0.0553853,0,0,0,0,0,0,0,0,0,0,0,0,0,0,0,0,0,0,0,0,0,0,0,0,0,0,0,0,0,0,-0.0567449,0.0553853,0,0,0,0,0,0,0,0,0,0,0,0,0,0,0,0,0,0,0,0,0,0,0,0,0,0,0,0,0,0,0,0,0,0,0,0,0,0,0,0,0,0,0,0,0,0,0,0,0,0,0,0.0629441,0,0,0,0,0,0,0,0,0,0,0,0,0,0,0,0,0,-0.000390625,-0.121012,0,0,0,0,0,0,0,0,0,0,0,0,0,0,0,0,0,0,0,0,0,0,0,0,0,0,0,0,0,0,0.261759,-0.338471,0,0,0,0,0,0,0,0,0,0,0,0,0,0,0,0,0,0,0,0,0,0,0,0,0,0,0,0,0,0
HfNb0.18Ta0.18Ti1.27Zr,8.5,CR+A,s,BCC,31,0,25,540,63.8,,,0,1,1,0,0,40,0.0001,1,,25,,0,900,0.5,10,60,,,,Hf1 Nb0.18 Ta0.18 Ti1.27 Zr1,0,0,0,0,0,0,0,0,0,0,0,0,0,0,0,0,0,0,0,0,0,0.349862,0,0,0,0,0,0,0,0,0,0,0,0,0,0,0,0,0,0.275482,0.0495868,0,0,0,0,0,0,0,0,0,0,0,0,0,0,0,0,0,0,0,0,0,0,0,0,0,0,0,0,0,0,0.275482,0.0495868,0,0,0,0,0,0,0,0,0,0,0,0,0,0,0,0,0,0,0,0,0,0,0,0,0,0,0,0,0,0,26.5046,0.0450515,0.01143734,0.973158,2255.17,0.0546411,3290,2.60318,0.0809301,191.047,80,138.42,294.573,8.65014,1581.65,0,0,0,0,0,0,0,0,0,0,0,0,0,0,0,0,0,0,0,0,0,0.0505093,0,0,0,0,0,0,0,0,0,0,0,0,0,0,0,0,0,-0.052433,0.0738365,0,0,0,0,0,0,0,0,0,0,0,0,0,0,0,0,0,0,0,0,0,0,0,0,0,0,0,0,0,0,-0.0382949,0.0738365,0,0,0,0,0,0,0,0,0,0,0,0,0,0,0,0,0,0,0,0,0,0,0,0,0,0,0,0,0,0,0,0,0,0,0,0,0,0,0,0,0,0,0,0,0,0,0,0,0,0,0,-0.008614874,0,0,0,0,0,0,0,0,0,0,0,0,0,0,0,0,0,-0.0719951,-0.19239,0,0,0,0,0,0,0,0,0,0,0,0,0,0,0,0,0,0,0,0,0,0,0,0,0,0,0,0,0,0,0.191079,-0.408404,0,0,0,0,0,0,0,0,0,0,0,0,0,0,0,0,0,0,0,0,0,0,0,0,0,0,0,0,0,0
HfNbTaTiZr,9.9,HIP+A,s,BCC,42,1,800,535,54.1,38.08,,1,1,0,0,0,150,0.001,1,,1200,207,1,1200,24,10,0,,,,Hf1 Nb1 Ta1 Ti1 Zr1,0,0,0,0,0,0,0,0,0,0,0,0,0,0,0,0,0,0,0,0,0,0.2,0,0,0,0,0,0,0,0,0,0,0,0,0,0,0,0,0,0.2,0.2,0,0,0,0,0,0,0,0,0,0,0,0,0,0,0,0,0,0,0,0,0,0,0,0,0,0,0,0,0,0,0.2,0.2,0,0,0,0,0,0,0,0,0,0,0,0,0,0,0,0,0,0,0,0,0,0,0,0,0,0,0,0,0,0,12.4117,0.0497103,0.0133809,2.72,2523,0.16,3290,3.21996,0.0813301,158,80,128.75,384,10,1664.59,0,0,0,0,0,0,0,0,0,0,0,0,0,0,0,0,0,0,0,0,0,0.0290088,0,0,0,0,0,0,0,0,0,0,0,0,0,0,0,0,0,-0.0739135,0.0523441,0,0,0,0,0,0,0,0,0,0,0,0,0,0,0,0,0,0,0,0,0,0,0,0,0,0,0,0,0,0,-0.0597835,0.0523441,0,0,0,0,0,0,0,0,0,0,0,0,0,0,0,0,0,0,0,0,0,0,0,0,0,0,0,0,0,0,0,0,0,0,0,0,0,0,0,0,0,0,0,0,0,0,0,0,0,0,0,0.0899122,0,0,0,0,0,0,0,0,0,0,0,0,0,0,0,0,0,0.0267824,-0.0935667,0,0,0,0,0,0,0,0,0,0,0,0,0,0,0,0,0,0,0,0,0,0,0,0,0,0,0,0,0,0,0.287817,-0.310945,0,0,0,0,0,0,0,0,0,0,0,0,0,0,0,0,0,0,0,0,0,0,0,0,0,0,0,0,0,0
MoNbTaTi0.25W,13.1,AC,s,BCC,47,1,25,1109,84.7,2.51,,0,0,0,0,0,,0.00056,1,,25,,0,25,0,10,0,,,,Mo1 Nb1 Ta1 Ti0.25 W1,0,0,0,0,0,0,0,0,0,0,0,0,0,0,0,0,0,0,0,0,0,0.0588235,0,0,0,0,0,0,0,0,0,0,0,0,0,0,0,0,0,0,0.235294,0.235294,0,0,0,0,0,0,0,0,0,0,0,0,0,0,0,0,0,0,0,0,0,0,0,0,0,0,0,0,0,0,0.235294,0.235294,0,0,0,0,0,0,0,0,0,0,0,0,0,0,0,0,0,0,0,0,0,0,0,0,0,0,0,0,0,6.38177,0.0249499,0.0127077,-6.14533,3086.18,0.0276817,3695,4.2497,0.192797,313.529,80,232.692,653.529,12,2324.02,0,0,0,0,0,0,0,0,0,0,0,0,0,0,0,0,0,0,0,0,0,-0.0466011,0,0,0,0,0,0,0,0,0,0,0,0,0,0,0,0,0,0,-0.0232534,0.0331981,0,0,0,0,0,0,0,0,0,0,0,0,0,0,0,0,0,0,0,0,0,0,0,0,0,0,0,0,0,0,-0.0232534,0.0249589,0,0,0,0,0,0,0,0,0,0,0,0,0,0,0,0,0,0,0,0,0,0,0,0,0,0,0,0,0,0,0,0,0,0,0,0,0,0,0,0,0,0,0,0,0,0,0,0,0,0,0.28498,0,0,0,0,0,0,0,0,0,0,0,0,0,0,0,0,0,0,0.121229,0.919141,0,0,0,0,0,0,0,0,0,0,0,0,0,0,0,0,0,0,0,0,0,0,0,0,0,0,0,0,0,0,-0.0754335,-1.03618,0,0,0,0,0,0,0,0,0,0,0,0,0,0,0,0,0,0,0,0,0,0,0,0,0,0,0,0,0
MoNbTaW,13.7,HIP+A,s,BCC,54,1,800,552,40.4,22.33,,0,1,0,0,0,200,0.001,1,,25,,0,1400,19,10,0,,,,Mo1 Nb1 Ta1 W1,0,0,0,0,0,0,0,0,0,0,0,0,0,0,0,0,0,0,0,0,0,0,0,0,0,0,0,0,0,0,0,0,0,0,0,0,0,0,0,0,0.25,0.25,0,0,0,0,0,0,0,0,0,0,0,0,0,0,0,0,0,0,0,0,0,0,0,0,0,0,0,0,0,0,0.25,0.25,0,0,0,0,0,0,0,0,0,0,0,0,0,0,0,0,0,0,0,0,0,0,0,0,0,0,0,0,0,5.59925,0.023393,0.0115257,-6.5,3157.75,0,3695,4.02891,0.190917,317.5,80,238.333,682.5,12.5,2597.09,0,0,0,0,0,0,0,0,0,0,0,0,0,0,0,0,0,0,0,0,0,0,0,0,0,0,0,0,0,0,0,0,0,0,0,0,0,0,0,0,-0.0261665,0.0302862,0,0,0,0,0,0,0,0,0,0,0,0,0,0,0,0,0,0,0,0,0,0,0,0,0,0,0,0,0,0,-0.0261665,0.0220467,0,0,0,0,0,0,0,0,0,0,0,0,0,0,0,0,0,0,0,0,0,0,0,0,0,0,0,0,0,0,0,0,0,0,0,0,0,0,0,0,0,0,0,0,0,0,0,0,0,0,0,0,0,0,0,0,0,0,0,0,0,0,0,0,0,0,0,0,0,0.140346,0.93058,0,0,0,0,0,0,0,0,0,0,0,0,0,0,0,0,0,0,0,0,0,0,0,0,0,0,0,0,0,0,-0.0550385,-1.01589,0,0,0,0,0,0,0,0,0,0,0,0,0,0,0,0,0,0,0,0,0,0,0,0,0,0,0,0,0
NbTaVW,12.9,AC,S,BCC,56,1,25,1530,118.7,11.11,492.5,0,0,0,0,0,,0.0005,1,,25,,0,25,0,10,0,,,,Nb1 Ta1 V1 W1,0,0,0,0,0,0,0,0,0,0,0,0,0,0,0,0,0,0,0,0,0,0,0.25,0,0,0,0,0,0,0,0,0,0,0,0,0,0,0,0,0,0.25,0,0,0,0,0,0,0,0,0,0,0,0,0,0,0,0,0,0,0,0,0,0,0,0,0,0,0,0,0,0,0,0.25,0.25,0,0,0,0,0,0,0,0,0,0,0,0,0,0,0,0,0,0,0,0,0,0,0,0,0,0,0,0,0,7.63126,0.0331747,0.0115257,-4.5,2979.5,0,3695,3.6481,0.193281,262.5,50,191.667,620,12.25,2910.77,0,0,0,0,0,0,0,0,0,0,0,0,0,0,0,0,0,0,0,0,0,0,0.05545539,0,0,0,0,0,0,0,0,0,0,0,0,0,0,0,0,0,-0.0345536,0,0,0,0,0,0,0,0,0,0,0,0,0,0,0,0,0,0,0,0,0,0,0,0,0,0,0,0,0,0,0,-0.0345536,0.0136518,0,0,0,0,0,0,0,0,0,0,0,0,0,0,0,0,0,0,0,0,0,0,0,0,0,0,0,0,0,0,0,0,0,0,0,0,0,0,0,0,0,0,0,0,0,0,0,0,0,0,0,0.343936,0,0,0,0,0,0,0,0,0,0,0,0,0,0,0,0,0,0.372148,0,0,0,0,0,0,0,0,0,0,0,0,0,0,0,0,0,0,0,0,0,0,0,0,0,0,0,0,0,0,0,0.166211,-0.882296,0,0,0,0,0,0,0,0,0,0,0,0,0,0,0,0,0,0,0,0,0,0,0,0,0,0,0,0,0